SpectraSuite Data File
++++++++++++++++++++++++++++++++++++
Date: Wed Jan 31 12:17:50 EST 2024
User: ul
Dark Spectrum Present: No
Reference Spectrum Present: No
Number of Sampled Component Spectra: 1
Spectrometers: USB2G57348
Integration Time (usec): 100000 (USB2G57348)
Spectra Averaged: 1 (USB2G57348)
Boxcar Smoothing: 0 (USB2G57348)
Correct for Electrical Dark: No (USB2G57348)
Strobe/Lamp Enabled: No (USB2G57348)
Correct for Detector Non-linearity: No (USB2G57348)
Correct for Stray Light: No (USB2G57348)
Number of Pixels in Processed Spectrum: 651
>>>>>Begin Processed Spectral Data<<<<<
350,00	129,05
351,00	123,50
352,00	123,52
353,00	122,01
354,00	122,95
355,00	121,03
356,00	123,02
357,00	124,19
358,00	123,19
359,00	122,35
360,00	124,19
361,00	121,06
362,00	118,00
363,00	121,42
364,00	122,99
365,00	126,91
366,00	123,12
367,00	125,11
368,00	125,32
369,00	123,88
370,00	123,64
371,00	127,14
372,00	124,23
373,00	126,74
374,00	127,03
375,00	124,27
376,00	126,48
377,00	123,94
378,00	126,99
379,00	127,86
380,00	127,15
381,00	125,98
382,00	122,69
383,00	125,97
384,00	120,98
385,00	126,86
386,00	125,63
387,00	123,98
388,00	127,73
389,00	125,80
390,00	124,98
391,00	126,87
392,00	122,98
393,00	127,06
394,00	124,03
395,00	125,35
396,00	124,91
397,00	125,29
398,00	127,52
399,00	124,04
400,00	127,98
401,00	128,08
402,00	126,98
403,00	127,43
404,00	125,67
405,00	127,87
406,00	122,73
407,00	126,97
408,00	128,03
409,00	124,15
410,00	125,20
411,00	125,98
412,00	126,25
413,00	126,69
414,00	124,96
415,00	129,03
416,00	125,29
417,00	129,96
418,00	124,61
419,00	128,11
420,00	128,80
421,00	128,69
422,00	127,07
423,00	128,93
424,00	127,74
425,00	124,58
426,00	124,86
427,00	127,03
428,00	121,74
429,00	128,61
430,00	127,01
431,00	127,98
432,00	129,06
433,00	125,12
434,00	125,96
435,00	125,97
436,00	125,77
437,00	125,21
438,00	126,23
439,00	125,00
440,00	125,01
441,00	127,73
442,00	125,05
443,00	127,90
444,00	129,41
445,00	128,54
446,00	125,87
447,00	124,10
448,00	126,89
449,00	126,13
450,00	125,99
451,00	123,69
452,00	123,71
453,00	125,82
454,00	128,81
455,00	127,24
456,00	126,44
457,00	128,03
458,00	126,34
459,00	125,97
460,00	128,18
461,00	125,17
462,00	128,58
463,00	126,87
464,00	125,00
465,00	125,91
466,00	127,89
467,00	127,02
468,00	126,98
469,00	126,88
470,00	125,55
471,00	126,10
472,00	125,93
473,00	124,61
474,00	127,73
475,00	127,02
476,00	124,61
477,00	126,54
478,00	126,08
479,00	126,25
480,00	125,04
481,00	127,23
482,00	128,99
483,00	125,90
484,00	126,83
485,00	126,93
486,00	125,03
487,00	127,00
488,00	126,60
489,00	128,46
490,00	125,98
491,00	124,24
492,00	125,90
493,00	128,88
494,00	128,00
495,00	126,00
496,00	126,99
497,00	126,02
498,00	129,05
499,00	123,65
500,00	129,95
501,00	125,17
502,00	127,01
503,00	127,22
504,00	125,33
505,00	124,60
506,00	129,04
507,00	126,39
508,00	123,06
509,00	127,56
510,00	124,00
511,00	124,37
512,00	126,06
513,00	125,73
514,00	127,99
515,00	125,08
516,00	125,99
517,00	125,53
518,00	126,93
519,00	125,10
520,00	125,13
521,00	128,43
522,00	125,56
523,00	126,03
524,00	125,46
525,00	127,67
526,00	122,67
527,00	125,00
528,00	125,28
529,00	123,83
530,00	125,39
531,00	122,06
532,00	124,95
533,00	123,84
534,00	124,56
535,00	123,72
536,00	123,85
537,00	124,18
538,00	123,97
539,00	123,67
540,00	126,34
541,00	124,03
542,00	124,80
543,00	126,57
544,00	124,38
545,00	125,65
546,00	124,86
547,00	125,38
548,00	127,14
549,00	126,11
550,00	124,75
551,00	125,16
552,00	124,45
553,00	124,54
554,00	126,87
555,00	125,05
556,00	125,97
557,00	126,18
558,00	125,54
559,00	126,37
560,00	126,18
561,00	124,96
562,00	123,37
563,00	121,96
564,00	126,65
565,00	124,03
566,00	120,02
567,00	124,73
568,00	132,26
569,00	125,25
570,00	123,22
571,00	122,88
572,00	121,77
573,00	126,88
574,00	126,56
575,00	124,11
576,00	124,00
577,00	129,03
578,00	125,96
579,00	123,41
580,00	127,75
581,00	124,53
582,00	125,69
583,00	124,14
584,00	125,01
585,00	129,74
586,00	129,29
587,00	131,53
588,00	713,53
589,00	1701,69
590,00	743,28
591,00	203,47
592,00	138,00
593,00	129,57
594,00	125,01
595,00	130,10
596,00	125,34
597,00	123,33
598,00	126,24
599,00	127,54
600,00	126,49
601,00	125,99
602,00	126,13
603,00	125,07
604,00	125,84
605,00	125,82
606,00	125,09
607,00	126,13
608,00	125,99
609,00	124,93
610,00	125,26
611,00	122,56
612,00	127,75
613,00	123,86
614,00	127,10
615,00	125,01
616,00	125,92
617,00	128,44
618,00	125,19
619,00	126,27
620,00	127,77
621,00	126,88
622,00	122,87
623,00	123,06
624,00	124,71
625,00	124,77
626,00	122,70
627,00	124,52
628,00	122,34
629,00	127,69
630,00	122,99
631,00	127,99
632,00	124,96
633,00	124,74
634,00	125,95
635,00	125,76
636,00	125,94
637,00	124,36
638,00	125,80
639,00	123,93
640,00	123,93
641,00	122,53
642,00	122,89
643,00	127,17
644,00	126,63
645,00	123,51
646,00	125,52
647,00	122,48
648,00	122,95
649,00	130,01
650,00	123,86
651,00	124,05
652,00	120,92
653,00	124,53
654,00	124,19
655,00	125,51
656,00	125,95
657,00	122,31
658,00	127,75
659,00	120,87
660,00	123,98
661,00	125,84
662,00	124,50
663,00	125,59
664,00	125,97
665,00	124,91
666,00	125,12
667,00	124,85
668,00	126,73
669,00	123,93
670,00	125,41
671,00	123,82
672,00	124,03
673,00	124,09
674,00	124,81
675,00	122,45
676,00	124,38
677,00	124,56
678,00	126,69
679,00	125,38
680,00	124,00
681,00	122,66
682,00	123,66
683,00	124,48
684,00	123,10
685,00	126,99
686,00	123,95
687,00	123,94
688,00	126,07
689,00	124,04
690,00	124,79
691,00	127,14
692,00	124,09
693,00	126,20
694,00	125,41
695,00	124,89
696,00	185,65
697,00	156,53
698,00	138,27
699,00	124,50
700,00	124,70
701,00	125,63
702,00	125,88
703,00	126,51
704,00	123,35
705,00	124,04
706,00	164,46
707,00	152,29
708,00	134,68
709,00	123,74
710,00	125,89
711,00	125,11
712,00	125,91
713,00	125,08
714,00	129,90
715,00	125,94
716,00	128,82
717,00	125,86
718,00	124,03
719,00	123,97
720,00	122,99
721,00	126,01
722,00	123,96
723,00	124,08
724,00	123,95
725,00	127,99
726,00	132,63
727,00	143,99
728,00	137,19
729,00	128,10
730,00	121,16
731,00	124,92
732,00	124,07
733,00	122,06
734,00	123,97
735,00	126,10
736,00	124,97
737,00	180,79
738,00	233,90
739,00	175,82
740,00	137,69
741,00	127,88
742,00	124,78
743,00	123,70
744,00	125,50
745,00	126,62
746,00	125,87
747,00	125,05
748,00	127,05
749,00	148,52
750,00	242,70
751,00	264,97
752,00	179,81
753,00	140,49
754,00	126,02
755,00	123,33
756,00	123,91
757,00	125,29
758,00	126,04
759,00	125,30
760,00	126,81
761,00	126,46
762,00	199,93
763,00	652,90
764,00	370,49
765,00	199,30
766,00	144,72
767,00	132,04
768,00	124,00
769,00	126,93
770,00	126,97
771,00	167,30
772,00	301,78
773,00	205,04
774,00	151,90
775,00	130,75
776,00	125,03
777,00	128,66
778,00	123,47
779,00	127,73
780,00	123,67
781,00	125,42
782,00	124,35
783,00	126,14
784,00	124,91
785,00	124,90
786,00	124,14
787,00	125,32
788,00	126,99
789,00	124,96
790,00	123,01
791,00	125,78
792,00	123,53
793,00	127,88
794,00	239,04
795,00	193,96
796,00	160,83
797,00	131,47
798,00	125,34
799,00	130,53
800,00	233,45
801,00	289,49
802,00	199,74
803,00	149,89
804,00	127,26
805,00	125,00
806,00	126,62
807,00	124,08
808,00	126,89
809,00	184,43
810,00	394,97
811,00	822,61
812,00	435,23
813,00	234,08
814,00	141,47
815,00	130,65
816,00	126,72
817,00	163,84
818,00	279,91
819,00	415,69
820,00	261,40
821,00	173,31
822,00	134,36
823,00	128,87
824,00	128,82
825,00	153,20
826,00	238,56
827,00	184,04
828,00	149,25
829,00	124,72
830,00	123,76
831,00	126,21
832,00	124,84
833,00	124,38
834,00	124,04
835,00	126,93
836,00	123,81
837,00	124,41
838,00	124,49
839,00	124,49
840,00	256,13
841,00	261,13
842,00	371,11
843,00	222,91
844,00	163,09
845,00	133,83
846,00	127,98
847,00	127,91
848,00	123,32
849,00	124,65
850,00	128,44
851,00	156,35
852,00	165,30
853,00	147,28
854,00	128,58
855,00	122,88
856,00	125,58
857,00	127,14
858,00	124,74
859,00	123,35
860,00	123,64
861,00	123,48
862,00	123,97
863,00	125,05
864,00	124,03
865,00	121,29
866,00	134,15
867,00	135,03
868,00	127,83
869,00	124,41
870,00	124,20
871,00	124,06
872,00	124,99
873,00	124,81
874,00	122,22
875,00	125,75
876,00	127,00
877,00	123,20
878,00	124,73
879,00	121,30
880,00	127,11
881,00	124,15
882,00	125,97
883,00	125,59
884,00	121,82
885,00	122,94
886,00	125,60
887,00	125,11
888,00	121,56
889,00	126,04
890,00	126,04
891,00	127,43
892,00	124,01
893,00	125,95
894,00	124,33
895,00	124,18
896,00	125,27
897,00	123,02
898,00	123,08
899,00	129,87
900,00	127,07
901,00	124,23
902,00	128,50
903,00	127,40
904,00	126,11
905,00	127,62
906,00	124,97
907,00	125,00
908,00	126,64
909,00	125,12
910,00	124,80
911,00	196,18
912,00	284,53
913,00	184,71
914,00	149,37
915,00	130,77
916,00	124,38
917,00	126,99
918,00	126,75
919,00	126,52
920,00	125,98
921,00	130,47
922,00	150,43
923,00	135,24
924,00	131,44
925,00	125,18
926,00	124,74
927,00	125,52
928,00	124,51
929,00	125,31
930,00	123,34
931,00	123,49
932,00	122,93
933,00	127,69
934,00	123,34
935,00	122,22
936,00	122,75
937,00	123,05
938,00	129,00
939,00	123,23
940,00	125,81
941,00	124,00
942,00	124,04
943,00	123,86
944,00	125,00
945,00	126,30
946,00	125,59
947,00	124,34
948,00	127,12
949,00	124,10
950,00	123,17
951,00	126,94
952,00	123,11
953,00	125,04
954,00	123,67
955,00	126,07
956,00	125,47
957,00	127,01
958,00	124,11
959,00	126,65
960,00	123,82
961,00	123,58
962,00	127,02
963,00	123,52
964,00	126,69
965,00	140,71
966,00	131,78
967,00	126,06
968,00	123,61
969,00	128,01
970,00	124,75
971,00	123,59
972,00	122,67
973,00	123,94
974,00	124,95
975,00	125,71
976,00	126,94
977,00	126,02
978,00	125,73
979,00	128,40
980,00	124,80
981,00	124,11
982,00	124,69
983,00	126,02
984,00	123,66
985,00	125,85
986,00	123,03
987,00	126,21
988,00	126,09
989,00	124,26
990,00	122,54
991,00	126,63
992,00	124,87
993,00	125,53
994,00	122,97
995,00	124,39
996,00	125,11
997,00	127,87
998,00	123,10
999,00	125,80
1000,00	123,74
>>>>>End Processed Spectral Data<<<<<
