SpectraSuite Data File
++++++++++++++++++++++++++++++++++++
Date: Wed Jan 31 12:10:34 EST 2024
User: ul
Dark Spectrum Present: No
Reference Spectrum Present: No
Number of Sampled Component Spectra: 1
Spectrometers: USB2G57348
Integration Time (usec): 100000 (USB2G57348)
Spectra Averaged: 1 (USB2G57348)
Boxcar Smoothing: 0 (USB2G57348)
Correct for Electrical Dark: No (USB2G57348)
Strobe/Lamp Enabled: No (USB2G57348)
Correct for Detector Non-linearity: No (USB2G57348)
Correct for Stray Light: No (USB2G57348)
Number of Pixels in Processed Spectrum: 651
>>>>>Begin Processed Spectral Data<<<<<
350,00	130,05
351,00	123,32
352,00	123,20
353,00	124,00
354,00	123,52
355,00	125,64
356,00	123,97
357,00	125,69
358,00	125,87
359,00	123,32
360,00	125,33
361,00	127,11
362,00	128,43
363,00	128,87
364,00	123,95
365,00	125,33
366,00	125,87
367,00	125,88
368,00	125,59
369,00	126,76
370,00	125,72
371,00	127,12
372,00	126,61
373,00	125,58
374,00	124,98
375,00	127,07
376,00	126,92
377,00	127,72
378,00	126,82
379,00	130,43
380,00	123,39
381,00	127,09
382,00	128,07
383,00	124,53
384,00	129,00
385,00	130,16
386,00	129,31
387,00	128,99
388,00	126,29
389,00	126,13
390,00	127,03
391,00	125,07
392,00	129,08
393,00	126,01
394,00	129,52
395,00	132,81
396,00	129,99
397,00	125,96
398,00	127,50
399,00	125,90
400,00	127,63
401,00	126,48
402,00	125,00
403,00	127,29
404,00	128,79
405,00	126,83
406,00	126,69
407,00	129,71
408,00	127,04
409,00	125,55
410,00	127,02
411,00	127,01
412,00	131,07
413,00	131,07
414,00	131,16
415,00	127,83
416,00	131,32
417,00	129,93
418,00	125,24
419,00	130,43
420,00	130,84
421,00	130,83
422,00	129,78
423,00	129,59
424,00	128,10
425,00	128,78
426,00	128,78
427,00	132,07
428,00	129,21
429,00	130,78
430,00	131,98
431,00	130,37
432,00	133,06
433,00	132,04
434,00	132,93
435,00	131,21
436,00	130,05
437,00	132,52
438,00	131,23
439,00	130,56
440,00	135,97
441,00	133,08
442,00	132,33
443,00	129,97
444,00	131,93
445,00	133,48
446,00	136,51
447,00	137,21
448,00	135,13
449,00	135,18
450,00	136,02
451,00	136,28
452,00	135,93
453,00	139,83
454,00	140,12
455,00	137,87
456,00	141,34
457,00	141,96
458,00	139,98
459,00	141,09
460,00	143,70
461,00	142,92
462,00	144,02
463,00	148,70
464,00	143,99
465,00	146,74
466,00	145,45
467,00	146,90
468,00	148,40
469,00	150,93
470,00	150,35
471,00	155,02
472,00	153,33
473,00	151,50
474,00	153,22
475,00	149,86
476,00	157,12
477,00	157,13
478,00	160,25
479,00	159,42
480,00	161,37
481,00	157,64
482,00	160,35
483,00	165,56
484,00	166,93
485,00	162,03
486,00	169,90
487,00	167,17
488,00	167,77
489,00	171,66
490,00	172,96
491,00	172,78
492,00	172,43
493,00	174,29
494,00	173,92
495,00	175,71
496,00	177,24
497,00	177,88
498,00	176,10
499,00	184,22
500,00	184,03
501,00	179,89
502,00	179,98
503,00	183,05
504,00	182,18
505,00	183,45
506,00	184,11
507,00	189,49
508,00	191,01
509,00	186,95
510,00	185,00
511,00	192,94
512,00	192,58
513,00	196,68
514,00	188,02
515,00	193,20
516,00	198,20
517,00	196,62
518,00	202,36
519,00	202,36
520,00	211,99
521,00	208,48
522,00	208,79
523,00	205,34
524,00	208,74
525,00	211,42
526,00	213,54
527,00	217,14
528,00	220,00
529,00	221,66
530,00	221,29
531,00	225,28
532,00	231,79
533,00	231,67
534,00	225,42
535,00	231,14
536,00	232,79
537,00	236,32
538,00	233,20
539,00	240,48
540,00	247,31
541,00	246,03
542,00	246,55
543,00	247,48
544,00	245,56
545,00	253,92
546,00	249,07
547,00	251,22
548,00	259,47
549,00	252,06
550,00	259,77
551,00	258,86
552,00	258,49
553,00	265,13
554,00	257,63
555,00	260,55
556,00	263,02
557,00	259,20
558,00	260,40
559,00	262,50
560,00	258,16
561,00	260,03
562,00	258,29
563,00	256,20
564,00	264,62
565,00	256,16
566,00	259,95
567,00	251,02
568,00	258,37
569,00	258,52
570,00	256,56
571,00	260,88
572,00	245,63
573,00	254,66
574,00	247,06
575,00	247,27
576,00	242,71
577,00	255,02
578,00	243,19
579,00	246,48
580,00	250,26
581,00	245,54
582,00	244,02
583,00	247,22
584,00	253,25
585,00	247,59
586,00	242,64
587,00	240,59
588,00	252,87
589,00	248,28
590,00	245,83
591,00	246,18
592,00	247,57
593,00	253,05
594,00	253,08
595,00	250,88
596,00	253,10
597,00	256,75
598,00	260,00
599,00	257,36
600,00	264,81
601,00	265,06
602,00	253,45
603,00	269,59
604,00	278,85
605,00	272,39
606,00	278,83
607,00	279,66
608,00	282,01
609,00	284,83
610,00	282,75
611,00	286,85
612,00	294,41
613,00	297,45
614,00	292,50
615,00	294,01
616,00	294,20
617,00	294,29
618,00	301,10
619,00	297,41
620,00	309,00
621,00	306,20
622,00	298,11
623,00	311,12
624,00	306,75
625,00	315,88
626,00	312,59
627,00	317,12
628,00	316,32
629,00	323,42
630,00	326,60
631,00	319,83
632,00	323,97
633,00	317,40
634,00	322,42
635,00	321,75
636,00	328,41
637,00	329,48
638,00	324,78
639,00	328,85
640,00	328,21
641,00	329,86
642,00	325,42
643,00	331,79
644,00	328,29
645,00	332,19
646,00	336,36
647,00	334,81
648,00	336,14
649,00	344,00
650,00	342,48
651,00	342,31
652,00	355,18
653,00	357,66
654,00	354,34
655,00	361,86
656,00	365,15
657,00	360,78
658,00	367,37
659,00	375,96
660,00	385,02
661,00	386,59
662,00	387,47
663,00	392,69
664,00	401,94
665,00	414,26
666,00	413,50
667,00	416,99
668,00	430,18
669,00	435,18
670,00	441,30
671,00	454,42
672,00	460,40
673,00	469,69
674,00	477,06
675,00	487,07
676,00	510,53
677,00	521,11
678,00	545,52
679,00	560,18
680,00	563,83
681,00	587,24
682,00	594,74
683,00	608,70
684,00	627,37
685,00	636,72
686,00	658,46
687,00	684,39
688,00	681,07
689,00	719,91
690,00	731,83
691,00	747,50
692,00	761,06
693,00	791,10
694,00	815,77
695,00	812,29
696,00	821,32
697,00	863,89
698,00	880,15
699,00	888,67
700,00	911,63
701,00	914,00
702,00	936,84
703,00	954,02
704,00	963,11
705,00	975,67
706,00	1006,90
707,00	1021,91
708,00	1041,75
709,00	1041,98
710,00	1053,16
711,00	1073,33
712,00	1073,23
713,00	1087,04
714,00	1100,05
715,00	1106,68
716,00	1115,23
717,00	1134,00
718,00	1131,76
719,00	1153,83
720,00	1141,99
721,00	1160,99
722,00	1179,85
723,00	1165,42
724,00	1149,82
725,00	1146,38
726,00	1170,07
727,00	1174,16
728,00	1168,91
729,00	1178,99
730,00	1181,23
731,00	1179,12
732,00	1204,24
733,00	1209,67
734,00	1228,64
735,00	1225,81
736,00	1214,86
737,00	1277,95
738,00	1233,09
739,00	1230,25
740,00	1238,11
741,00	1227,55
742,00	1222,16
743,00	1224,42
744,00	1212,84
745,00	1224,87
746,00	1231,33
747,00	1247,00
748,00	1224,48
749,00	1211,18
750,00	1212,23
751,00	1224,64
752,00	1221,86
753,00	1194,57
754,00	1191,26
755,00	1192,62
756,00	1190,62
757,00	1202,49
758,00	1184,39
759,00	1184,00
760,00	1177,58
761,00	1172,75
762,00	1152,09
763,00	1176,76
764,00	1165,33
765,00	1173,57
766,00	1154,61
767,00	1158,22
768,00	1143,01
769,00	1134,43
770,00	1134,41
771,00	1134,48
772,00	1134,66
773,00	1140,87
774,00	1114,44
775,00	1122,45
776,00	1102,94
777,00	1089,28
778,00	1089,91
779,00	1084,67
780,00	1079,65
781,00	1061,03
782,00	1052,64
783,00	1047,76
784,00	1044,82
785,00	1023,56
786,00	1006,14
787,00	1013,07
788,00	1001,63
789,00	1012,39
790,00	983,42
791,00	1006,19
792,00	991,19
793,00	980,06
794,00	978,75
795,00	982,02
796,00	980,28
797,00	966,21
798,00	979,78
799,00	982,39
800,00	980,37
801,00	969,00
802,00	964,76
803,00	984,11
804,00	987,74
805,00	955,65
806,00	947,13
807,00	953,84
808,00	938,24
809,00	955,84
810,00	933,94
811,00	927,27
812,00	939,21
813,00	934,79
814,00	911,24
815,00	885,63
816,00	878,73
817,00	871,62
818,00	862,48
819,00	853,70
820,00	857,30
821,00	834,04
822,00	823,59
823,00	802,41
824,00	795,85
825,00	797,68
826,00	787,93
827,00	782,44
828,00	779,11
829,00	774,34
830,00	764,67
831,00	756,70
832,00	742,87
833,00	737,65
834,00	728,33
835,00	726,05
836,00	713,16
837,00	706,48
838,00	711,89
839,00	688,74
840,00	698,96
841,00	673,21
842,00	680,20
843,00	666,97
844,00	665,40
845,00	657,36
846,00	646,80
847,00	648,81
848,00	649,92
849,00	631,30
850,00	630,10
851,00	617,70
852,00	619,92
853,00	628,07
854,00	597,95
855,00	603,86
856,00	595,41
857,00	593,81
858,00	582,58
859,00	581,62
860,00	577,39
861,00	566,83
862,00	567,53
863,00	558,72
864,00	542,10
865,00	536,24
866,00	546,64
867,00	541,86
868,00	528,16
869,00	526,86
870,00	506,91
871,00	515,60
872,00	504,87
873,00	492,70
874,00	498,40
875,00	485,21
876,00	477,90
877,00	488,50
878,00	478,75
879,00	481,40
880,00	473,91
881,00	483,51
882,00	471,72
883,00	470,82
884,00	476,93
885,00	472,26
886,00	483,98
887,00	487,23
888,00	489,42
889,00	491,02
890,00	479,84
891,00	493,24
892,00	476,79
893,00	472,53
894,00	470,61
895,00	471,06
896,00	470,09
897,00	455,30
898,00	461,83
899,00	459,73
900,00	441,34
901,00	437,25
902,00	430,72
903,00	432,36
904,00	431,93
905,00	423,05
906,00	421,15
907,00	419,94
908,00	405,94
909,00	402,94
910,00	401,06
911,00	396,27
912,00	389,19
913,00	372,82
914,00	380,23
915,00	373,37
916,00	363,18
917,00	351,01
918,00	349,04
919,00	350,01
920,00	347,71
921,00	335,29
922,00	339,84
923,00	328,86
924,00	319,50
925,00	317,79
926,00	305,35
927,00	303,21
928,00	292,99
929,00	293,45
930,00	283,25
931,00	285,67
932,00	276,51
933,00	273,96
934,00	268,45
935,00	249,75
936,00	247,99
937,00	231,75
938,00	229,18
939,00	214,81
940,00	212,76
941,00	209,00
942,00	198,14
943,00	201,00
944,00	202,00
945,00	195,09
946,00	196,77
947,00	196,55
948,00	197,99
949,00	193,38
950,00	198,30
951,00	199,29
952,00	191,75
953,00	200,09
954,00	199,28
955,00	195,86
956,00	196,92
957,00	198,98
958,00	199,19
959,00	200,86
960,00	198,03
961,00	193,75
962,00	191,02
963,00	190,03
964,00	189,68
965,00	191,94
966,00	188,69
967,00	191,74
968,00	187,80
969,00	185,46
970,00	193,10
971,00	186,36
972,00	188,99
973,00	183,99
974,00	185,97
975,00	184,65
976,00	184,84
977,00	177,83
978,00	177,86
979,00	175,21
980,00	174,88
981,00	174,54
982,00	169,95
983,00	174,03
984,00	169,32
985,00	177,36
986,00	164,13
987,00	162,92
988,00	166,73
989,00	163,37
990,00	165,41
991,00	162,80
992,00	163,22
993,00	160,46
994,00	160,21
995,00	157,89
996,00	158,24
997,00	155,92
998,00	155,04
999,00	153,13
1000,00	156,16
>>>>>End Processed Spectral Data<<<<<
